Experiment	Frequency Sweep	
Date	02.11.2011 11:17:24	
User		
f_res (Hz)	122987.014	
Q	17400	
Phase (deg)	1936.47	
Amp/Exc (nm/mV)	0.327587	
Number of points	256	
Fit length	11	
Comment01	far away v_ptop=1.0	
Bias>Bias (V)	0E+0	
Bias>Calibration (V/V)	1E+0	
Bias>Offset (V)	0E+0	
NanonisMain>Session Path	E:\nanonis_data	
NanonisMain>SW Version	Generic 4	
NanonisMain>UI Release	2738	
NanonisMain>RT Release	2738	
NanonisMain>RT Frequency (Hz)	10E+3	
NanonisMain>Signals Oversampling	10	
NanonisMain>Animations Period (s)	20E-3	
NanonisMain>Indicators Period (s)	300E-3	
NanonisMain>Measurements Period (s)	43.6856E-3	
Oscillation Control>differential input	TRUE	
Oscillation Control>input 1/10	TRUE	
Oscillation Control>Input Calibration (m/V)	238.732E-9	
Oscillation Control>Input Range (m)	10E-9	
Oscillation Control>Center Frequency (Hz)	122.987E+3	
Oscillation Control>Range (Hz)	1.2207E+3	
Oscillation Control>Reference Phase (deg)	-1.93647E+3	
Oscillation Control>Cut off frq (Hz)	48.6	
Oscillation Control>Harmonic	1	
Oscillation Control>Phase P gain (Hz/rad)	174.533E-3	
Oscillation Control>Phase I gain (Hz/rad/s)	4.53927E+0	
Oscillation Control>Phase controller on	FALSE	
Oscillation Control>FrequencyShift (Hz)	0E+0	
Oscillation Control>Amplitude Setpoint (m)	500E-12	
Oscillation Control>Amplitude P gain (V/nm)	6.74706E+6	
Oscillation Control>Amplitude I gain (V/nm/s)	175.478E+6	
Oscillation Control>Amplitude controller on	FALSE	
Oscillation Control>Excitation (V)	10E-3	
Oscillation Control>output divider	0.1	
Oscillation Control>output off	FALSE	
Oscillation Control>output add	FALSE	
Oscillation Control>PLL-Setup Q-Factor	17.4E+3	
Oscillation Control>PLL-Setup Demod. Bandwidth Amp (Hz)	10E+0	
Oscillation Control>PLL-Setup Demod. Bandwidth Pha (Hz)	10E+0	
Oscillation Control>PLL-Setup amplitude/excitation (m/V)	327.587E-9	
Piezo Calibration>Active Calib.	LN	
Piezo Calibration>Calib. X (m/V)	72E-9	
Piezo Calibration>Calib. Y (m/V)	72E-9	
Piezo Calibration>Calib. Z (m/V)	-6.4E-9	
Piezo Calibration>HV Gain X	12.8	
Piezo Calibration>HV Gain Y	12.8	
Piezo Calibration>HV Gain Z	12.8	
Piezo Calibration>Tilt X (deg)	3.41405	
Piezo Calibration>Tilt Y (deg)	-0.0888537	
Piezo Calibration>Curvature radius X (m)	Inf	
Piezo Calibration>Curvature radius Y (m)	Inf	
Piezo Calibration>2nd order corr X (V/m^2)	0E+0	
Piezo Calibration>2nd order corr Y (V/m^2)	0E+0	
Piezo Calibration>Drift X (m/s)	0E+0	
Piezo Calibration>Drift Y (m/s)	0E+0	
Piezo Calibration>Drift Z (m/s)	0E+0	
Piezo Calibration>Drift correction status (on/off)	FALSE	
Scan>Scanfield	-1.5E-6;-1.5E-6;1E-6;1E-6;0E+0	
Scan>series name	%d-%m-%y-2nmNPs	
Scan>channels	Input 2 (V);Pressure (V);Bias (V);X (m);Y (m);Z (m);Phase (deg);Amplitude (m);Frequency Shift (Hz);Excitation (V)	
Scan>pixels/line	256	
Scan>lines	256	
Scan>speed forw. (m/s)	1.0016E-6	
Scan>speed backw. (m/s)	1.0016E-6	
Z-Controller>Z (m)	819.2E-9	
Z-Controller>Controller name	PLL1 - Frequency shift (negative)	
Z-Controller>Controller status	OFF	
Z-Controller>Setpoint	-3E+0	
Z-Controller>Setpoint unit	Hz	
Z-Controller>P gain	9.725E-12	
Z-Controller>I gain	611.04E-12	
Z-Controller>Time const (s)	15.9155E-3	
Z-Controller>TipLift (m)	0E+0	
Z-Controller>Switch off delay (s)	2E+0	

[DATA]
Frequency Shift (Hz)	Center Frequency (Hz)	Amplitude (m)	Phase (deg)
-19.1000E+0	122.987E+3	623.199E-12	93.3426E+0
-18.9502E+0	122.987E+3	593.853E-12	79.9613E+0
-18.8004E+0	122.987E+3	581.705E-12	83.0478E+0
-18.6506E+0	122.987E+3	589.720E-12	82.4368E+0
-18.5008E+0	122.987E+3	594.289E-12	82.4711E+0
-18.3510E+0	122.987E+3	593.683E-12	82.1896E+0
-18.2012E+0	122.987E+3	604.021E-12	82.3742E+0
-18.0514E+0	122.987E+3	607.383E-12	82.2319E+0
-17.9016E+0	122.987E+3	615.930E-12	82.1823E+0
-17.7518E+0	122.987E+3	620.778E-12	82.1159E+0
-17.6020E+0	122.987E+3	625.973E-12	82.2771E+0
-17.4522E+0	122.987E+3	634.613E-12	81.6973E+0
-17.3024E+0	122.987E+3	639.699E-12	82.1071E+0
-17.1526E+0	122.987E+3	641.084E-12	81.5183E+0
-17.0028E+0	122.987E+3	651.783E-12	81.4515E+0
-16.8530E+0	122.987E+3	654.737E-12	81.4730E+0
-16.7031E+0	122.987E+3	659.932E-12	81.2803E+0
-16.5533E+0	122.987E+3	668.224E-12	81.5376E+0
-16.4035E+0	122.987E+3	678.057E-12	81.1891E+0
-16.2537E+0	122.987E+3	679.196E-12	81.4038E+0
-16.1039E+0	122.987E+3	689.199E-12	81.1071E+0
-15.9541E+0	122.987E+3	693.431E-12	80.9065E+0
-15.8043E+0	122.987E+3	697.161E-12	80.5960E+0
-15.6545E+0	122.987E+3	707.226E-12	80.2421E+0
-15.5047E+0	122.987E+3	718.367E-12	79.9879E+0
-15.3549E+0	122.987E+3	722.481E-12	80.4245E+0
-15.2051E+0	122.987E+3	733.324E-12	79.9345E+0
-15.0553E+0	122.987E+3	736.215E-12	80.0772E+0
-14.9055E+0	122.987E+3	744.979E-12	79.8268E+0
-14.7557E+0	122.987E+3	744.615E-12	80.0600E+0
-14.6059E+0	122.987E+3	759.017E-12	79.8471E+0
-14.4561E+0	122.987E+3	766.912E-12	79.0040E+0
-14.3063E+0	122.987E+3	782.268E-12	79.0888E+0
-14.1565E+0	122.987E+3	784.041E-12	79.2600E+0
-14.0067E+0	122.987E+3	795.869E-12	78.9305E+0
-13.8569E+0	122.987E+3	800.965E-12	78.9357E+0
-13.7071E+0	122.987E+3	810.550E-12	78.9648E+0
-13.5573E+0	122.987E+3	817.348E-12	78.4716E+0
-13.4075E+0	122.987E+3	828.527E-12	78.2400E+0
-13.2577E+0	122.987E+3	840.231E-12	77.3909E+0
-13.1079E+0	122.987E+3	848.371E-12	77.6892E+0
-12.9581E+0	122.987E+3	851.922E-12	77.2916E+0
-12.8082E+0	122.987E+3	870.421E-12	77.3742E+0
-12.6584E+0	122.987E+3	879.339E-12	77.4097E+0
-12.5086E+0	122.987E+3	889.010E-12	77.1287E+0
-12.3588E+0	122.987E+3	896.837E-12	76.7804E+0
-12.2090E+0	122.987E+3	906.911E-12	76.4975E+0
-12.0592E+0	122.987E+3	917.156E-12	76.5958E+0
-11.9094E+0	122.987E+3	929.783E-12	76.0795E+0
-11.7596E+0	122.987E+3	936.516E-12	75.7730E+0
-11.6098E+0	122.987E+3	952.719E-12	75.8505E+0
-11.4600E+0	122.987E+3	962.303E-12	75.1737E+0
-11.3102E+0	122.987E+3	981.206E-12	75.1130E+0
-11.1604E+0	122.987E+3	986.337E-12	74.8491E+0
-11.0106E+0	122.987E+3	1.00504E-9	74.6265E+0
-10.8608E+0	122.987E+3	1.01450E-9	74.7093E+0
-10.7110E+0	122.987E+3	1.02907E-9	74.2668E+0
-10.5612E+0	122.987E+3	1.04190E-9	73.7047E+0
-10.4114E+0	122.987E+3	1.06204E-9	73.9157E+0
-10.2616E+0	122.987E+3	1.07325E-9	72.9176E+0
-10.1118E+0	122.987E+3	1.08806E-9	72.7370E+0
-9.96197E+0	122.987E+3	1.10157E-9	72.5309E+0
-9.81216E+0	122.987E+3	1.11568E-9	71.9133E+0
-9.66236E+0	122.987E+3	1.13023E-9	72.0516E+0
-9.51256E+0	122.987E+3	1.15613E-9	71.5890E+0
-9.36275E+0	122.987E+3	1.16651E-9	71.3933E+0
-9.21295E+0	122.987E+3	1.18323E-9	71.1465E+0
-9.06314E+0	122.987E+3	1.19812E-9	70.6456E+0
-8.91334E+0	122.987E+3	1.22420E-9	70.1214E+0
-8.76354E+0	122.987E+3	1.23452E-9	69.8306E+0
-8.61373E+0	122.987E+3	1.26211E-9	69.4775E+0
-8.46393E+0	122.987E+3	1.27777E-9	69.2620E+0
-8.31412E+0	122.987E+3	1.30220E-9	68.6874E+0
-8.16432E+0	122.987E+3	1.31401E-9	68.1863E+0
-8.01451E+0	122.987E+3	1.34304E-9	67.8029E+0
-7.86471E+0	122.987E+3	1.35899E-9	67.0358E+0
-7.71491E+0	122.987E+3	1.38943E-9	67.0560E+0
-7.56510E+0	122.987E+3	1.39839E-9	66.5393E+0
-7.41530E+0	122.987E+3	1.43759E-9	65.9853E+0
-7.26549E+0	122.987E+3	1.44746E-9	65.3471E+0
-7.11569E+0	122.987E+3	1.48163E-9	64.6054E+0
-6.96589E+0	122.987E+3	1.50157E-9	64.3994E+0
-6.81608E+0	122.987E+3	1.53088E-9	63.5402E+0
-6.66628E+0	122.987E+3	1.54735E-9	62.9916E+0
-6.51647E+0	122.987E+3	1.59575E-9	62.3150E+0
-6.36667E+0	122.987E+3	1.60125E-9	61.9564E+0
-6.21687E+0	122.987E+3	1.64892E-9	61.1223E+0
-6.06706E+0	122.987E+3	1.65914E-9	60.4798E+0
-5.91726E+0	122.987E+3	1.71648E-9	59.6802E+0
-5.76745E+0	122.987E+3	1.71887E-9	59.2497E+0
-5.61765E+0	122.987E+3	1.77469E-9	58.2025E+0
-5.46784E+0	122.987E+3	1.79310E-9	57.9122E+0
-5.31804E+0	122.987E+3	1.83247E-9	56.4500E+0
-5.16824E+0	122.987E+3	1.86404E-9	56.3395E+0
-5.01843E+0	122.987E+3	1.90975E-9	55.1972E+0
-4.86863E+0	122.987E+3	1.93695E-9	54.2493E+0
-4.71882E+0	122.987E+3	1.98361E-9	53.0156E+0
-4.56902E+0	122.987E+3	2.01657E-9	52.6387E+0
-4.41922E+0	122.987E+3	2.06481E-9	51.1903E+0
-4.26941E+0	122.987E+3	2.10056E-9	50.5973E+0
-4.11961E+0	122.987E+3	2.14136E-9	49.2362E+0
-3.96980E+0	122.987E+3	2.17447E-9	48.4652E+0
-3.82000E+0	122.987E+3	2.23536E-9	47.1780E+0
-3.67020E+0	122.987E+3	2.25822E-9	46.1483E+0
-3.52039E+0	122.987E+3	2.32005E-9	44.3756E+0
-3.37059E+0	122.987E+3	2.35940E-9	43.8007E+0
-3.22078E+0	122.987E+3	2.40737E-9	41.9163E+0
-3.07098E+0	122.987E+3	2.45265E-9	40.8425E+0
-2.92118E+0	122.987E+3	2.51030E-9	39.0380E+0
-2.77137E+0	122.987E+3	2.55955E-9	38.1515E+0
-2.62157E+0	122.987E+3	2.60665E-9	36.2419E+0
-2.47177E+0	122.987E+3	2.64612E-9	35.1736E+0
-2.32196E+0	122.987E+3	2.70639E-9	33.0001E+0
-2.17216E+0	122.987E+3	2.76136E-9	31.8189E+0
-2.02235E+0	122.987E+3	2.81125E-9	29.7683E+0
-1.87255E+0	122.987E+3	2.84159E-9	28.7160E+0
-1.72275E+0	122.987E+3	2.89115E-9	26.0097E+0
-1.57294E+0	122.987E+3	2.94634E-9	24.4839E+0
-1.42314E+0	122.987E+3	2.99281E-9	22.0986E+0
-1.27333E+0	122.987E+3	3.02699E-9	20.5442E+0
-1.12353E+0	122.987E+3	3.07125E-9	18.0554E+0
-973.726E-3	122.987E+3	3.11276E-9	16.3259E+0
-823.923E-3	122.987E+3	3.14529E-9	13.6862E+0
-674.119E-3	122.987E+3	3.17320E-9	11.7522E+0
-524.315E-3	122.987E+3	3.20902E-9	9.10077E+0
-374.511E-3	122.987E+3	3.22614E-9	7.22159E+0
-224.707E-3	122.987E+3	3.24436E-9	4.41677E+0
-74.9029E-3	122.987E+3	3.26494E-9	2.42906E+0
74.9011E-3	122.987E+3	3.27219E-9	-389.109E-3
224.705E-3	122.987E+3	3.27587E-9	-2.46745E+0
374.509E-3	122.987E+3	3.26763E-9	-5.34854E+0
524.313E-3	122.987E+3	3.26217E-9	-7.37634E+0
674.117E-3	122.987E+3	3.25599E-9	-10.2941E+0
823.921E-3	122.987E+3	3.22734E-9	-12.2562E+0
973.725E-3	122.987E+3	3.19253E-9	-15.0075E+0
1.12353E+0	122.987E+3	3.16357E-9	-17.1296E+0
1.27333E+0	122.987E+3	3.12733E-9	-19.5446E+0
1.42314E+0	122.987E+3	3.10009E-9	-21.5615E+0
1.57294E+0	122.987E+3	3.04067E-9	-24.4047E+0
1.72274E+0	122.987E+3	2.99754E-9	-26.2064E+0
1.87255E+0	122.987E+3	2.94937E-9	-28.6095E+0
2.02235E+0	122.987E+3	2.90314E-9	-30.3088E+0
2.17216E+0	122.987E+3	2.84597E-9	-32.6983E+0
2.32196E+0	122.987E+3	2.78883E-9	-34.3274E+0
2.47176E+0	122.987E+3	2.71551E-9	-36.3598E+0
2.62157E+0	122.987E+3	2.66995E-9	-37.6776E+0
2.77137E+0	122.987E+3	2.61719E-9	-39.8417E+0
2.92118E+0	122.987E+3	2.54741E-9	-41.1346E+0
3.07098E+0	122.987E+3	2.49857E-9	-42.9452E+0
3.22078E+0	122.987E+3	2.43853E-9	-44.0065E+0
3.37059E+0	122.987E+3	2.38151E-9	-45.8655E+0
3.52039E+0	122.987E+3	2.32960E-9	-47.0082E+0
3.67019E+0	122.987E+3	2.26328E-9	-48.5885E+0
3.82000E+0	122.987E+3	2.22970E-9	-49.4847E+0
3.96980E+0	122.987E+3	2.15860E-9	-51.0625E+0
4.11961E+0	122.987E+3	2.12884E-9	-51.5943E+0
4.26941E+0	122.987E+3	2.07776E-9	-53.1061E+0
4.41921E+0	122.987E+3	2.03379E-9	-53.7962E+0
4.56902E+0	122.987E+3	1.97143E-9	-55.3996E+0
4.71882E+0	122.987E+3	1.94496E-9	-55.7333E+0
4.86863E+0	122.987E+3	1.88559E-9	-57.0484E+0
5.01843E+0	122.987E+3	1.85977E-9	-57.4809E+0
5.16824E+0	122.987E+3	1.80899E-9	-58.7311E+0
5.31804E+0	122.987E+3	1.78479E-9	-59.1852E+0
5.46784E+0	122.987E+3	1.72886E-9	-60.1302E+0
5.61765E+0	122.987E+3	1.70340E-9	-60.6739E+0
5.76745E+0	122.987E+3	1.66162E-9	-61.6294E+0
5.91726E+0	122.987E+3	1.63766E-9	-61.9064E+0
6.06706E+0	122.987E+3	1.59678E-9	-63.0319E+0
6.21686E+0	122.987E+3	1.58187E-9	-63.1191E+0
6.36667E+0	122.987E+3	1.52925E-9	-64.2613E+0
6.51647E+0	122.987E+3	1.50958E-9	-64.2849E+0
6.66628E+0	122.987E+3	1.47905E-9	-65.1598E+0
6.81608E+0	122.987E+3	1.45458E-9	-65.5439E+0
6.96588E+0	122.987E+3	1.42311E-9	-66.1379E+0
7.11569E+0	122.987E+3	1.40608E-9	-66.4322E+0
7.26549E+0	122.987E+3	1.36315E-9	-67.2258E+0
7.41530E+0	122.987E+3	1.35665E-9	-67.5353E+0
7.56510E+0	122.987E+3	1.31743E-9	-67.8927E+0
7.71491E+0	122.987E+3	1.30522E-9	-68.1697E+0
7.86471E+0	122.987E+3	1.27157E-9	-68.7502E+0
8.01451E+0	122.987E+3	1.25802E-9	-69.1042E+0
8.16432E+0	122.987E+3	1.23354E-9	-69.3527E+0
8.31412E+0	122.987E+3	1.21749E-9	-69.7705E+0
8.46393E+0	122.987E+3	1.18774E-9	-70.4793E+0
8.61373E+0	122.987E+3	1.17768E-9	-70.4745E+0
8.76353E+0	122.987E+3	1.14610E-9	-70.8963E+0
8.91334E+0	122.987E+3	1.14447E-9	-70.9695E+0
9.06314E+0	122.987E+3	1.12112E-9	-71.3708E+0
9.21295E+0	122.987E+3	1.10630E-9	-71.8889E+0
9.36275E+0	122.987E+3	1.08538E-9	-71.4895E+0
9.51255E+0	122.987E+3	1.07475E-9	-72.6177E+0
9.66236E+0	122.987E+3	1.04587E-9	-72.4079E+0
9.81216E+0	122.987E+3	1.04319E-9	-72.7185E+0
9.96197E+0	122.987E+3	1.01902E-9	-73.3775E+0
10.1118E+0	122.987E+3	1.01772E-9	-72.9561E+0
10.2616E+0	122.987E+3	989.454E-12	-73.3057E+0
10.4114E+0	122.987E+3	985.172E-12	-73.5534E+0
10.5612E+0	122.987E+3	963.999E-12	-73.5640E+0
10.7110E+0	122.987E+3	949.343E-12	-74.4464E+0
10.8608E+0	122.987E+3	938.089E-12	-74.4027E+0
11.0106E+0	122.987E+3	932.777E-12	-74.6033E+0
11.1604E+0	122.987E+3	912.287E-12	-74.3923E+0
11.3102E+0	122.987E+3	906.025E-12	-75.1286E+0
11.4600E+0	122.987E+3	891.616E-12	-74.9590E+0
11.6098E+0	122.987E+3	884.169E-12	-75.2566E+0
11.7596E+0	122.987E+3	867.282E-12	-75.4252E+0
11.9094E+0	122.987E+3	855.562E-12	-75.7897E+0
12.0592E+0	122.987E+3	846.684E-12	-75.8084E+0
12.2090E+0	122.987E+3	844.788E-12	-75.5858E+0
12.3588E+0	122.987E+3	827.095E-12	-76.2321E+0
12.5086E+0	122.987E+3	822.687E-12	-75.7723E+0
12.6584E+0	122.987E+3	807.387E-12	-76.3109E+0
12.8082E+0	122.987E+3	807.749E-12	-76.5576E+0
12.9580E+0	122.987E+3	796.752E-12	-76.2020E+0
13.1079E+0	122.987E+3	788.118E-12	-76.5520E+0
13.2577E+0	122.987E+3	767.740E-12	-76.5923E+0
13.4075E+0	122.987E+3	764.374E-12	-76.9776E+0
13.5573E+0	122.987E+3	758.345E-12	-76.7193E+0
13.7071E+0	122.987E+3	747.438E-12	-77.0036E+0
13.8569E+0	122.987E+3	741.758E-12	-76.5727E+0
14.0067E+0	122.987E+3	735.188E-12	-77.4148E+0
14.1565E+0	122.987E+3	728.518E-12	-77.0184E+0
14.3063E+0	122.987E+3	727.329E-12	-77.4380E+0
14.4561E+0	122.987E+3	712.507E-12	-77.3614E+0
14.6059E+0	122.987E+3	706.547E-12	-77.9275E+0
14.7557E+0	122.987E+3	695.606E-12	-77.5379E+0
14.9055E+0	122.987E+3	686.880E-12	-77.2677E+0
15.0553E+0	122.987E+3	678.590E-12	-77.4836E+0
15.2051E+0	122.987E+3	673.906E-12	-77.5980E+0
15.3549E+0	122.987E+3	669.832E-12	-77.7691E+0
15.5047E+0	122.987E+3	660.168E-12	-78.2385E+0
15.6545E+0	122.987E+3	654.341E-12	-77.7082E+0
15.8043E+0	122.987E+3	648.781E-12	-78.1679E+0
15.9541E+0	122.987E+3	650.419E-12	-78.3283E+0
16.1039E+0	122.987E+3	635.437E-12	-78.1083E+0
16.2537E+0	122.987E+3	635.176E-12	-78.1279E+0
16.4035E+0	122.987E+3	626.972E-12	-78.3165E+0
16.5533E+0	122.987E+3	619.824E-12	-78.4434E+0
16.7031E+0	122.987E+3	616.228E-12	-78.5531E+0
16.8530E+0	122.987E+3	607.028E-12	-78.6409E+0
17.0028E+0	122.987E+3	605.660E-12	-78.4728E+0
17.1526E+0	122.987E+3	597.837E-12	-78.4662E+0
17.3024E+0	122.987E+3	596.722E-12	-78.6530E+0
17.4522E+0	122.987E+3	593.350E-12	-78.5740E+0
17.6020E+0	122.987E+3	583.964E-12	-78.8930E+0
17.7518E+0	122.987E+3	579.711E-12	-78.6631E+0
17.9016E+0	122.987E+3	579.346E-12	-78.9875E+0
18.0514E+0	122.987E+3	571.803E-12	-78.9691E+0
18.2012E+0	122.987E+3	566.737E-12	-78.9450E+0
18.3510E+0	122.987E+3	563.113E-12	-79.1740E+0
18.5008E+0	122.987E+3	556.984E-12	-78.9764E+0
18.6506E+0	122.987E+3	551.892E-12	-78.9290E+0
18.8004E+0	122.987E+3	549.889E-12	-79.5026E+0
18.9502E+0	122.987E+3	543.912E-12	-79.0312E+0
19.1000E+0	122.987E+3	542.543E-12	-79.6349E+0
